
time,ax,ay,az,Gain,
0.0030,0.1658,-0.0191,-0.1016,78.4934,
0.0030,0.1658,-0.0191,-0.1016,78.4934,
0.0030,0.1658,-0.0191,-0.1016,78.4934,
0.0030,-0.0548,0.1222,-0.3112,78.4934,
0.0240,-0.0548,0.1222,-0.3112,78.4934,
0.0340,0.0473,-0.1826,0.1050,78.4934,
0.0340,0.0473,-0.1826,0.1050,78.4934,
0.0340,0.0473,-0.1826,0.1050,78.4934,
0.0690,0.0473,-0.1826,0.1050,78.4934,
0.0690,0.0473,-0.1826,0.1050,78.4934,
0.0710,0.0473,-0.1826,0.1050,78.4934,
0.0710,0.0473,-0.1826,0.1050,78.4934,
0.0720,0.0473,-0.1826,0.1050,78.4934,
0.0720,0.0153,-0.0135,0.1365,78.4934,
0.1100,0.0153,-0.0135,0.1365,78.5589,
0.1110,0.0153,-0.0135,0.1365,78.5589,
0.1110,0.0153,-0.0135,0.1365,78.5589,
0.1110,0.2765,-0.0180,0.1670,78.5589,
0.1500,0.2765,-0.0180,0.1670,78.5589,
0.1500,0.2765,-0.0180,0.1670,78.5589,
0.1510,0.2765,-0.0180,0.1670,78.5589,
0.1510,0.2101,-0.3032,0.3736,78.5589,
0.1690,0.2101,-0.3032,0.3736,78.5589,
0.1880,0.2101,-0.3032,0.3736,78.5589,
0.1880,0.2101,-0.3032,0.3736,78.5589,
0.1890,-0.0040,0.1100,-0.1413,78.5589,
0.1910,-0.0040,0.1100,-0.1413,78.5589,
0.2190,-0.0040,0.1100,-0.1413,78.5589,
0.2190,-0.0040,0.1100,-0.1413,78.5589,
0.2270,-0.0040,0.1100,-0.1413,78.5589,
0.2270,-0.0040,0.1100,-0.1413,78.5589,
0.2270,-0.0641,0.1738,-0.2383,78.5589,
0.2670,-0.0624,0.0671,-0.0716,78.5589,
0.2670,-0.0624,0.0671,-0.0716,78.5589,
0.2670,-0.0624,0.0671,-0.0716,78.5589,
0.2690,-0.0624,0.0671,-0.0716,78.5589,
0.2710,-0.0624,0.0671,-0.0716,78.5589,
0.3050,-0.0624,0.0671,-0.0716,78.5589,
0.3050,-0.0624,0.0671,-0.0716,78.5589,
0.3050,-0.2928,0.0354,0.3885,78.5589,
0.3050,-0.2928,0.0354,0.3885,78.5589,
0.3110,-0.2928,0.0354,0.3885,78.5589,
0.3440,-0.2928,0.0354,0.3885,78.5589,
0.3440,-0.2928,0.0354,0.3885,78.5589,
0.3440,-0.0071,-0.0618,0.0322,78.5589,
0.3680,-0.0071,-0.0618,0.0322,78.5589,
0.3840,0.6531,-0.2024,0.0962,78.5589,
0.3840,0.6531,-0.2024,0.0962,78.5589,
0.3840,0.6531,-0.2024,0.0962,78.5589,
0.3840,0.6531,-0.2024,0.0962,78.5589,
0.3910,0.6531,-0.2024,0.0962,78.5589,
0.4190,0.6531,-0.2024,0.0962,77.4432,
0.4210,0.6531,-0.2024,0.0962,77.4432,
0.4220,0.6531,-0.2024,0.0962,77.4432,
0.4220,-0.2192,0.3123,-1.1607,77.4432,
0.4610,-0.2192,0.3123,-1.1607,77.4432,
0.4610,-0.2192,0.3123,-1.1607,77.4432,
0.4610,-0.3914,0.3255,-1.1694,77.4432,
0.4610,-0.3914,0.3255,-1.1694,77.4432,
0.4690,-0.3914,0.3255,-1.1694,77.4432,
0.4710,-0.3914,0.3255,-1.1694,77.4432,
0.5010,-0.3914,0.3255,-1.1694,77.4432,
0.5010,-0.3914,0.3255,-1.1694,77.4432,
0.5010,0.2632,-0.0139,0.0478,77.4432,
0.5120,0.2632,-0.0139,0.0478,77.4432,
0.5380,0.2632,-0.0139,0.0478,77.4432,
0.5390,-0.2069,-0.1245,1.3770,77.4432,
0.5390,-0.2069,-0.1245,1.3770,77.4432,
0.5390,-0.2069,-0.1245,1.3770,77.4432,
0.5700,-0.2069,-0.1245,1.3770,77.4432,
0.5770,-0.2069,-0.1245,1.3770,77.4432,
0.5780,-0.2069,-0.1245,1.3770,77.4432,
0.5780,-0.0006,-0.2043,1.0737,77.4432,
0.5920,-0.0006,-0.2043,1.0737,77.4432,
0.6190,-0.0006,-0.2043,1.0737,77.4432,
0.6190,-0.0006,-0.2043,1.0737,77.4432,
0.6190,-0.0006,-0.2043,1.0737,77.4432,
0.6190,0.0457,-0.4159,0.5160,77.4432,
0.6190,0.0457,-0.4159,0.5160,77.4432,
0.6550,0.0457,-0.4159,0.5160,77.4432,
0.6550,0.0457,-0.4159,0.5160,77.4432,
0.6550,-0.0722,-0.3473,0.3043,77.4432,
0.6740,-0.0722,-0.3473,0.3043,77.4432,
0.6750,-0.0722,-0.3473,0.3043,77.4432,
0.6880,-0.0722,-0.3473,0.3043,77.4432,
0.6940,-0.0722,-0.3473,0.3043,77.4432,
0.6940,-0.0722,-0.3473,0.3043,77.4432,
0.6940,-0.1813,0.3007,0.0072,77.4432,
0.7120,-0.1813,0.3007,0.0072,77.1764,
0.7330,-0.1813,0.3007,0.0072,77.1764,
0.7330,-0.1813,0.3007,0.0072,77.1764,
0.7340,0.2232,0.3161,-0.2945,77.1764,
0.7720,0.2232,0.3161,-0.2945,77.1764,
0.7720,0.2232,0.3161,-0.2945,77.1764,
0.7760,0.2232,0.3161,-0.2945,77.1764,
0.7760,0.2232,0.3161,-0.2945,77.1764,
0.7780,-0.3864,0.4168,-0.5453,77.1764,
0.7920,-0.3864,0.4168,-0.5453,77.1764,
0.8110,-0.3864,0.4168,-0.5453,77.1764,
0.8110,-0.3864,0.4168,-0.5453,77.1764,
0.8120,0.0012,0.1035,-0.5047,77.1764,
0.8210,0.0012,0.1035,-0.5047,77.1764,
0.8400,0.0012,0.1035,-0.5047,77.1764,
0.8490,0.0012,0.1035,-0.5047,77.1764,
0.8500,0.0012,0.1035,-0.5047,77.1764,
0.8500,-0.0562,0.0513,-0.3518,77.1764,
0.8690,-0.0562,0.0513,-0.3518,77.1764,
0.8720,-0.0562,0.0513,-0.3518,77.1764,
0.8900,-0.0562,0.0513,-0.3518,77.1764,
0.8900,-0.0562,0.0513,-0.3518,77.1764,
0.8900,-0.2170,0.0285,0.0645,77.1764,
0.9120,-0.2170,0.0285,0.0645,77.1764,
0.9120,-0.2170,0.0285,0.0645,77.1764,
0.9280,-0.2170,0.0285,0.0645,77.1764,
0.9280,-0.2170,0.0285,0.0645,77.1764,
0.9280,0.0235,0.0272,-0.0673,77.1764,
0.9670,0.0235,0.0272,-0.0673,77.1764,
0.9680,0.0235,0.0272,-0.0673,77.1764,
0.9720,0.0235,0.0272,-0.0673,77.1764,
0.9720,0.0107,-0.0328,0.0550,77.1764,
0.9930,0.0107,-0.0328,0.0550,77.1764,
0.9930,0.0107,-0.0328,0.0550,77.1764,
1.0080,0.0107,-0.0328,0.0550,77.1764,
1.0090,-0.1490,0.1383,-0.4501,77.1764,
1.0110,-0.1490,0.1383,-0.4501,77.5333,
1.0230,-0.1490,0.1383,-0.4501,77.5333,
1.0440,-0.1490,0.1383,-0.4501,77.5333,
1.0450,-0.1490,0.1383,-0.4501,77.5333,
1.0450,0.0682,-0.0234,-0.1337,77.5333,
1.0730,0.0682,-0.0234,-0.1337,77.5333,
1.0740,0.0682,-0.0234,-0.1337,77.5333,
1.0740,0.0682,-0.0234,-0.1337,77.5333,
1.0830,0.0682,-0.0234,-0.1337,77.5333,
1.0840,0.0682,-0.0234,-0.1337,77.5333,
1.0840,0.1018,-0.0311,0.1357,77.5333,
1.1120,0.1018,-0.0311,0.1357,77.5333,
1.1230,0.1018,-0.0311,0.1357,77.5333,
1.1230,0.1018,-0.0311,0.1357,77.5333,
1.1230,-0.2207,0.1782,0.3117,77.5333,
1.1430,-0.2207,0.1782,0.3117,77.5333,
1.1610,-0.2207,0.1782,0.3117,77.5333,
1.1610,-0.2207,0.1782,0.3117,77.5333,
1.1620,0.0752,-0.0538,0.3298,77.5333,
1.1710,0.0752,-0.0538,0.3298,77.5333,
1.1910,0.0752,-0.0538,0.3298,77.5333,
1.2000,0.0752,-0.0538,0.3298,77.5333,
1.2000,0.0752,-0.0538,0.3298,77.5333,
1.2040,-0.0133,0.1188,-0.2790,77.5333,
1.2190,-0.0133,0.1188,-0.2790,77.5333,
1.2210,-0.0133,0.1188,-0.2790,77.5333,
1.2390,-0.0133,0.1188,-0.2790,77.5333,
1.2390,-0.0133,0.1188,-0.2790,77.5333,
1.2400,0.1789,-0.2308,-0.0042,77.5333,
1.2710,0.1789,-0.2308,-0.0042,77.5333,
1.2750,0.1789,-0.2308,-0.0042,77.5333,
1.2810,0.1789,-0.2308,-0.0042,77.5333,
1.2820,0.1789,-0.2308,-0.0042,77.5333,
1.2820,0.0819,-0.1229,0.5950,77.5333,
1.2940,0.0819,-0.1229,0.5950,77.5333,
1.3120,0.0819,-0.1229,0.5950,78.9139,
1.3170,0.0819,-0.1229,0.5950,78.9139,
1.3210,0.0819,-0.1229,0.5950,78.9139,
1.3210,-0.1562,0.1037,0.2305,78.9139,
1.3560,-0.3230,-0.0137,0.4408,78.9139,
1.3560,-0.3230,-0.0137,0.4408,78.9139,
1.3560,-0.3230,-0.0137,0.4408,78.9139,
1.3690,-0.3230,-0.0137,0.4408,78.9139,
1.3690,-0.3230,-0.0137,0.4408,78.9139,
1.3940,-0.3230,-0.0137,0.4408,78.9139,
1.3950,0.1602,-0.0290,-0.2882,78.9139,
1.3960,0.1602,-0.0290,-0.2882,78.9139,
1.3960,0.1602,-0.0290,-0.2882,78.9139,
1.4190,0.1602,-0.0290,-0.2882,78.9139,
1.4330,0.1602,-0.0290,-0.2882,78.9139,
1.4330,0.1602,-0.0290,-0.2882,78.9139,
1.4330,-0.0647,0.1815,-1.0054,78.9139,
1.4450,-0.0647,0.1815,-1.0054,78.9139,
1.4690,-0.0647,0.1815,-1.0054,78.9139,
1.4720,-0.0647,0.1815,-1.0054,78.9139,
1.4730,-0.0647,0.1815,-1.0054,78.9139,
1.4730,-0.0647,0.1815,-1.0054,78.9139,
1.4730,-0.1506,-0.1057,-0.4363,78.9139,
1.5110,-0.1506,-0.1057,-0.4363,78.9139,
1.5120,-0.1506,-0.1057,-0.4363,78.9139,
1.5170,0.2055,-0.0190,-0.8406,78.9139,
1.5170,0.2055,-0.0190,-0.8406,78.9139,
1.5180,0.2055,-0.0190,-0.8406,78.9139,
1.5500,0.2055,-0.0190,-0.8406,78.9139,
1.5500,-0.1344,-0.0319,0.1233,78.9139,
1.5500,-0.1344,-0.0319,0.1233,78.9139,
1.5690,-0.1344,-0.0319,0.1233,78.9139,
1.5890,-0.1344,-0.0319,0.1233,78.9139,
1.5900,-0.1344,-0.0319,0.1233,78.9139,
1.5900,-0.1344,-0.0319,0.1233,78.9139,
1.5900,-0.0963,0.0688,0.6294,78.9139,
1.5930,-0.0963,0.0688,0.6294,78.9139,
1.6180,-0.0963,0.0688,0.6294,87.3296,
1.6270,-0.0963,0.0688,0.6294,87.3296,
1.6270,-0.0963,0.0688,0.6294,87.3296,
1.6270,0.1128,-0.0909,0.8310,87.3296,
1.6660,0.1128,-0.0909,0.8310,87.3296,
1.6670,0.1128,-0.0909,0.8310,87.3296,
1.6670,-0.0860,-0.1248,0.4676,87.3296,
1.6670,-0.0860,-0.1248,0.4676,87.3296,
1.6690,-0.0860,-0.1248,0.4676,87.3296,
1.6720,-0.0860,-0.1248,0.4676,87.3296,
1.7070,-0.0860,-0.1248,0.4676,87.3296,
1.7070,0.0887,-0.0099,-0.3785,87.3296,
1.7080,0.0887,-0.0099,-0.3785,87.3296,
1.7130,0.0887,-0.0099,-0.3785,87.3296,
1.7490,0.0887,-0.0099,-0.3785,87.3296,
1.7500,0.0887,-0.0099,-0.3785,87.3296,
1.7500,0.0887,-0.0099,-0.3785,87.3296,
1.7510,-0.1028,0.0575,-0.0481,87.3296,
1.7740,-0.1028,0.0575,-0.0481,87.3296,
1.7960,-0.1028,0.0575,-0.0481,87.3296,
1.7960,-0.1573,-0.1326,0.0915,87.3296,
1.7970,-0.1573,-0.1326,0.0915,87.3296,
1.8000,-0.1573,-0.1326,0.0915,87.3296,
1.8210,-0.1573,-0.1326,0.0915,87.3296,
1.8210,-0.1573,-0.1326,0.0915,87.3296,
1.8270,-0.1573,-0.1326,0.0915,87.3296,
1.8290,-0.1156,-0.2143,0.0252,87.3296,
1.8330,-0.1156,-0.2143,0.0252,87.3296,
1.8710,-0.1156,-0.2143,0.0252,87.3296,
1.8710,-0.1156,-0.2143,0.0252,87.3296,
1.8720,-0.0821,-0.2299,-0.1998,87.3296,
1.8720,-0.0821,-0.2299,-0.1998,87.3296,
1.8830,-0.0821,-0.2299,-0.1998,87.3296,
1.9010,-0.0821,-0.2299,-0.1998,87.3296,
1.9020,-0.0821,-0.2299,-0.1998,87.3296,
1.9020,-0.0821,-0.2299,-0.1998,87.3296,
1.9080,-0.0341,-0.1291,-0.3810,87.3296,
1.9130,-0.0341,-0.1291,-0.3810,89.2633,
1.9400,-0.0341,-0.1291,-0.3810,89.2633,
1.9400,-0.1900,0.2593,0.1383,89.2633,
1.9420,-0.1900,0.2593,0.1383,89.2633,
1.9700,-0.1900,0.2593,0.1383,89.2633,
1.9700,-0.1900,0.2593,0.1383,89.2633,
1.9780,-0.1900,0.2593,0.1383,89.2633,
1.9790,-0.1900,0.2593,0.1383,89.2633,
1.9790,0.1174,-0.1164,0.0404,89.2633,
1.9930,0.1174,-0.1164,0.0404,89.2633,
2.0180,0.1174,-0.1164,0.0404,89.2633,
2.0180,0.1174,-0.1164,0.0404,89.2633,
2.0190,0.3749,-0.1774,0.3898,89.2633,
2.0200,0.3749,-0.1774,0.3898,89.2633,
2.0520,0.3749,-0.1774,0.3898,89.2633,
2.0670,0.1663,-0.0546,-0.2848,89.2633,
2.0680,0.1663,-0.0546,-0.2848,89.2633,
2.0690,0.1663,-0.0546,-0.2848,89.2633,
2.0700,0.1663,-0.0546,-0.2848,89.2633,
2.0770,0.1663,-0.0546,-0.2848,89.2633,
2.0950,0.1663,-0.0546,-0.2848,89.2633,
2.0960,0.1114,-0.1329,0.4353,89.2633,
2.0960,0.1114,-0.1329,0.4353,89.2633,
2.1190,0.1114,-0.1329,0.4353,89.2633,
2.1210,0.1114,-0.1329,0.4353,89.2633,
2.1340,0.1114,-0.1329,0.4353,89.2633,
2.1340,0.1114,-0.1329,0.4353,89.2633,
2.1350,0.0291,-0.0893,0.4454,89.2633,
2.1730,0.0291,-0.0893,0.4454,89.2633,
2.1740,0.0291,-0.0893,0.4454,89.2633,
2.1760,0.1981,-0.0876,0.0394,89.2633,
2.1770,0.1981,-0.0876,0.0394,89.2633,
2.1950,0.1981,-0.0876,0.0394,89.2633,
2.1970,0.1981,-0.0876,0.0394,89.2633,
2.2150,0.1981,-0.0876,0.0394,89.1182,
2.2160,0.1981,-0.0876,0.0394,89.1182,
2.2160,-0.1436,0.0481,-0.2914,89.1182,
2.2200,-0.1436,0.0481,-0.2914,89.1182,
2.2540,-0.1436,0.0481,-0.2914,89.1182,
2.2550,-0.1436,0.0481,-0.2914,89.1182,
2.2560,-0.1958,0.1324,-0.2991,89.1182,
2.2740,-0.1958,0.1324,-0.2991,89.1182,
2.2750,-0.1958,0.1324,-0.2991,89.1182,
2.2920,-0.1958,0.1324,-0.2991,89.1182,
2.2930,0.4023,-0.1977,-0.2808,89.1182,
2.2940,0.4023,-0.1977,-0.2808,89.1182,
2.2940,0.4023,-0.1977,-0.2808,89.1182,
2.3170,0.4023,-0.1977,-0.2808,89.1182,
2.3330,0.4023,-0.1977,-0.2808,89.1182,
2.3330,0.4023,-0.1977,-0.2808,89.1182,
2.3340,-0.0493,-0.2198,0.0157,89.1182,
2.3570,-0.0493,-0.2198,0.0157,89.1182,
2.3740,-0.6463,0.3328,0.8106,89.1182,
2.3750,-0.6463,0.3328,0.8106,89.1182,
2.3760,-0.6463,0.3328,0.8106,89.1182,
2.3770,-0.6463,0.3328,0.8106,89.1182,
2.3990,-0.6463,0.3328,0.8106,89.1182,
2.4140,-0.6463,0.3328,0.8106,89.1182,
2.4140,-0.6463,0.3328,0.8106,89.1182,
2.4150,-0.5254,0.3977,0.9219,89.1182,
2.4240,-0.5254,0.3977,0.9219,89.1182,
2.4380,-0.5254,0.3977,0.9219,89.1182,
2.4510,-0.5254,0.3977,0.9219,89.1182,
2.4520,-0.5254,0.3977,0.9219,89.1182,
2.4530,0.0979,-0.1681,0.1344,89.1182,
2.4770,0.0979,-0.1681,0.1344,89.1182,
2.4780,0.0979,-0.1681,0.1344,89.1182,
2.4890,0.1862,-0.1577,-0.4680,89.1182,
2.4890,0.1862,-0.1577,-0.4680,89.1182,
2.4900,0.1862,-0.1577,-0.4680,89.1182,
2.5080,0.1862,-0.1577,-0.4680,89.1182,
2.5170,0.1862,-0.1577,-0.4680,89.0097,
2.5310,0.1862,-0.1577,-0.4680,89.0097,
2.5320,0.1862,-0.1577,-0.4680,89.0097,
2.5370,-0.1063,-0.1277,0.1217,89.0097,
2.5690,-0.1063,-0.1277,0.1217,89.0097,
2.5700,-0.1063,-0.1277,0.1217,89.0097,
2.5740,0.0041,-0.1286,0.1987,89.0097,
2.5750,0.0041,-0.1286,0.1987,89.0097,
2.5970,0.0041,-0.1286,0.1987,89.0097,
2.5970,0.0041,-0.1286,0.1987,89.0097,
2.6040,0.0041,-0.1286,0.1987,89.0097,
2.6040,0.0041,-0.1286,0.1987,89.0097,
2.6050,0.5004,-0.0603,-0.6769,89.0097,
2.6260,0.5004,-0.0603,-0.6769,89.0097,
2.6430,0.5004,-0.0603,-0.6769,89.0097,
2.6440,0.0267,0.0327,-0.5963,89.0097,
2.6450,0.0267,0.0327,-0.5963,89.0097,
2.6790,0.0267,0.0327,-0.5963,89.0097,
2.6870,0.0267,0.0327,-0.5963,89.0097,
2.6880,0.0267,0.0327,-0.5963,89.0097,
2.6880,0.0267,0.0327,-0.5963,89.0097,
2.6890,0.0267,0.0327,-0.5963,89.0097,
2.6900,-0.0412,-0.0353,-0.1049,89.0097,
2.7190,-0.0412,-0.0353,-0.1049,89.0097,
2.7250,0.3821,-0.1884,-0.0412,89.0097,
2.7260,0.3821,-0.1884,-0.0412,89.0097,
2.7270,0.3821,-0.1884,-0.0412,89.0097,
2.7560,0.3821,-0.1884,-0.0412,89.0097,
2.7570,0.3821,-0.1884,-0.0412,89.0097,
2.7600,-0.0536,-0.0221,0.2150,89.0097,
2.7600,-0.0536,-0.0221,0.2150,89.0097,
2.7720,-0.0536,-0.0221,0.2150,89.0097,
2.7960,-0.0536,-0.0221,0.2150,89.0097,
2.7970,-0.0536,-0.0221,0.2150,89.0097,
2.7980,-0.0536,-0.0221,0.2150,89.0097,
2.7990,0.0130,-0.1525,0.0947,89.0097,
2.8250,0.0130,-0.1525,0.0947,88.3793,
2.8370,-0.4625,0.1661,0.5067,88.3793,
2.8380,-0.4625,0.1661,0.5067,88.3793,
2.8390,-0.4625,0.1661,0.5067,88.3793,
2.8400,-0.4625,0.1661,0.5067,88.3793,
2.8730,-0.4625,0.1661,0.5067,88.3793,
2.8730,-0.4625,0.1661,0.5067,88.3793,
2.8740,-0.4625,0.1661,0.5067,88.3793,
2.8750,-0.4625,0.1661,0.5067,88.3793,
2.8770,0.0700,-0.0631,0.2856,88.3793,
2.9120,0.0700,-0.0631,0.2856,88.3793,
2.9130,0.1754,-0.0634,0.1248,88.3793,
2.9140,0.1754,-0.0634,0.1248,88.3793,
2.9150,0.1754,-0.0634,0.1248,88.3793,
2.9160,0.1754,-0.0634,0.1248,88.3793,
2.9580,0.1754,-0.0634,0.1248,88.3793,
2.9590,0.1754,-0.0634,0.1248,88.3793,
2.9600,-0.0111,-0.0902,-0.7573,88.3793,
2.9730,-0.0111,-0.0902,-0.7573,88.3793,
2.9920,-0.0111,-0.0902,-0.7573,88.3793,
2.9930,-0.0111,-0.0902,-0.7573,88.3793,
2.9940,-0.0111,-0.0902,-0.7573,88.3793,
2.9950,0.0574,-0.0631,-1.0065,88.3793,
2.9950,0.0574,-0.0631,-1.0065,88.3793,
3.0200,0.0574,-0.0631,-1.0065,88.3793,
3.0280,0.0574,-0.0631,-1.0065,88.3793,
3.0290,0.0574,-0.0631,-1.0065,88.3793,
3.0290,0.0417,-0.0573,-0.1590,88.3793,
3.0600,0.0417,-0.0573,-0.1590,88.3793,
3.0700,0.0417,-0.0573,-0.1590,88.3793,
3.0720,0.0417,-0.0573,-0.1590,88.3793,
3.0780,0.2784,-0.0814,0.0534,88.3793,
3.0790,0.2784,-0.0814,0.0534,88.3793,
3.0800,0.2784,-0.0814,0.0534,88.3793,
3.1070,0.2784,-0.0814,0.0534,88.3793,
3.1070,0.2784,-0.0814,0.0534,88.3793,
3.1070,0.3851,0.1317,1.2094,88.3793,
3.1130,0.3851,0.1317,1.2094,88.3793,
3.1440,0.3851,0.1317,1.2094,88.5244,
3.1450,0.3851,0.1317,1.2094,88.5244,
3.1450,0.3851,0.1317,1.2094,88.5244,
3.1460,-0.0429,0.0306,0.7116,88.5244,
3.1700,-0.0429,0.0306,0.7116,88.5244,
3.1840,-0.0429,0.0306,0.7116,88.5244,
3.1840,-0.0429,0.0306,0.7116,88.5244,
3.1840,-0.5667,-0.1023,3.7316,88.5244,
3.1940,-0.5667,-0.1023,3.7316,88.5244,
3.2310,-0.5667,-0.1023,3.7316,88.5244,
3.2370,-0.5667,-0.1023,3.7316,88.5244,
3.2380,-0.5667,-0.1023,3.7316,88.5244,
3.2380,-0.5667,-0.1023,3.7316,88.5244,
3.2390,-0.5371,-1.1796,2.5315,88.5244,
3.2680,-0.5371,-1.1796,2.5315,88.5244,
3.2730,-0.6428,-0.7121,-2.6880,88.5244,
3.2730,-0.6428,-0.7121,-2.6880,88.5244,
3.2740,-0.6428,-0.7121,-2.6880,88.5244,
3.2770,-0.6428,-0.7121,-2.6880,88.5244,
3.3040,-0.6428,-0.7121,-2.6880,88.5244,
3.3050,-1.0128,-1.1608,-3.1057,88.5244,
3.3060,-1.0128,-1.1608,-3.1057,88.5244,
3.3080,-1.0128,-1.1608,-3.1057,88.5244,
3.3150,-1.0128,-1.1608,-3.1057,88.5244,
3.3430,-1.0128,-1.1608,-3.1057,88.5244,
3.3440,-1.0128,-1.1608,-3.1057,88.5244,
3.3440,-0.4527,-0.1052,-3.1509,88.5244,
3.3730,-0.4527,-0.1052,-3.1509,88.5244,
3.3740,-0.4527,-0.1052,-3.1509,88.5244,
3.3820,-0.4527,-0.1052,-3.1509,88.5244,
3.3830,-0.4527,-0.1052,-3.1509,88.5244,
3.3840,0.9613,0.8186,-2.5720,88.5244,
3.3970,0.9613,0.8186,-2.5720,88.5244,
3.4240,0.6361,0.0218,0.3242,84.4924,
3.4250,0.6361,0.0218,0.3242,84.4924,
3.4260,0.6361,0.0218,0.3242,84.4924,
3.4260,0.6361,0.0218,0.3242,84.4924,
3.4600,0.6361,0.0218,0.3242,84.4924,
3.4610,0.6361,0.0218,0.3242,84.4924,
3.4620,0.6361,0.0218,0.3242,84.4924,
3.4630,0.2945,0.0507,1.6547,84.4924,
3.4740,0.2945,0.0507,1.6547,84.4924,
3.4770,0.2945,0.0507,1.6547,84.4924,
3.4980,0.2945,0.0507,1.6547,84.4924,
3.5030,0.1988,0.0578,0.8880,84.4924,
3.5040,0.1988,0.0578,0.8880,84.4924,
3.5190,0.1988,0.0578,0.8880,84.4924,
3.5390,0.1988,0.0578,0.8880,84.4924,
3.5400,0.1988,0.0578,0.8880,84.4924,
3.5400,0.1988,0.0578,0.8880,84.4924,
3.5410,0.1900,0.0163,0.0936,84.4924,
3.5760,0.1900,0.0163,0.0936,84.4924,
3.5780,0.1900,0.0163,0.0936,84.4924,
3.5780,-0.1079,-0.4029,-0.2107,84.4924,
3.5810,-0.1079,-0.4029,-0.2107,84.4924,
3.5960,-0.1079,-0.4029,-0.2107,84.4924,
3.6160,-0.1079,-0.4029,-0.2107,84.4924,
3.6170,-0.1079,-0.4029,-0.2107,84.4924,
3.6170,-0.1079,-0.4029,-0.2107,84.4924,
3.6180,-0.1629,-0.3100,-0.4144,84.4924,
3.6250,-0.1629,-0.3100,-0.4144,84.4924,
3.6550,-0.1629,-0.3100,-0.4144,84.4924,
3.6560,-0.1629,-0.3100,-0.4144,84.4924,
3.6570,-0.0698,-0.2885,0.0292,84.4924,
3.6740,-0.0698,-0.2885,0.0292,84.4924,
3.6760,-0.0698,-0.2885,0.0292,84.4924,
3.7020,-0.0698,-0.2885,0.0292,84.4924,
3.7030,-0.0698,-0.2885,0.0292,84.4924,
3.7030,-0.5036,0.0600,0.3599,84.4924,
3.7040,-0.5036,0.0600,0.3599,84.4924,
3.7150,-0.5036,0.0600,0.3599,84.4924,
3.7340,-0.5036,0.0600,0.3599,80.4499,
3.7380,-0.5036,0.0600,0.3599,80.4499,
3.7390,-0.0154,0.2531,0.6273,80.4499,
3.7680,-0.0154,0.2531,0.6273,80.4499,
3.7690,-0.0154,0.2531,0.6273,80.4499,
3.7690,-0.0154,0.2531,0.6273,80.4499,
3.7720,0.1141,0.1182,0.6335,80.4499,
3.7730,0.1141,0.1182,0.6335,80.4499,
3.7970,0.1141,0.1182,0.6335,80.4499,
3.8100,0.1141,0.1182,0.6335,80.4499,
3.8100,0.1141,0.1182,0.6335,80.4499,
3.8110,0.0758,-0.0426,0.5735,80.4499,
3.8270,0.0758,-0.0426,0.5735,80.4499,
3.8380,0.0758,-0.0426,0.5735,80.4499,
3.8510,0.0758,-0.0426,0.5735,80.4499,
3.8520,0.0758,-0.0426,0.5735,80.4499,
3.8530,0.1599,-0.0443,0.1082,80.4499,
3.8750,0.1599,-0.0443,0.1082,80.4499,
3.8770,0.1599,-0.0443,0.1082,80.4499,
3.8940,0.0353,-0.0579,-0.2362,80.4499,
3.8950,0.0353,-0.0579,-0.2362,80.4499,
3.8960,0.0353,-0.0579,-0.2362,80.4499,
3.9180,0.0353,-0.0579,-0.2362,80.4499,
3.9180,0.0353,-0.0579,-0.2362,80.4499,
3.9270,0.0353,-0.0579,-0.2362,80.4499,
3.9270,0.0353,-0.0579,-0.2362,80.4499,
3.9280,0.1829,-0.0582,-0.3216,80.4499,
3.9700,0.1829,-0.0582,-0.3216,80.4499,
3.9700,0.1829,-0.0582,-0.3216,80.4499,
3.9710,0.1183,-0.0800,-0.5517,80.4499,
3.9770,0.1183,-0.0800,-0.5517,80.4499,
3.9990,0.1183,-0.0800,-0.5517,80.4499,
4.0000,0.1183,-0.0800,-0.5517,80.4499,
4.0030,0.1183,-0.0800,-0.5517,80.4499,
4.0040,0.1183,-0.0800,-0.5517,80.4499,
4.0060,0.0803,0.1068,-0.7730,80.4499,
4.0260,0.0803,0.1068,-0.7730,81.1282,
4.0450,0.0803,0.1068,-0.7730,81.1282,
4.0460,0.0803,0.1068,-0.7730,81.1282,
4.0470,-0.0656,-0.0057,0.2010,81.1282,
4.0740,-0.0656,-0.0057,0.2010,81.1282,
4.0750,-0.0656,-0.0057,0.2010,81.1282,
4.0780,-0.0656,-0.0057,0.2010,81.1282,
4.0810,-0.6477,0.0927,0.7355,81.1282,
4.0840,-0.6477,0.0927,0.7355,81.1282,
4.0840,-0.6477,0.0927,0.7355,81.1282,
4.1200,-0.6477,0.0927,0.7355,81.1282,
4.1210,-0.6477,0.0927,0.7355,81.1282,
4.1220,-0.6477,0.0927,0.7355,81.1282,
4.1230,-0.3111,0.0118,0.6586,81.1282,
4.1550,-0.3111,0.0118,0.6586,81.1282,
4.1580,-0.3111,0.0118,0.6586,81.1282,
4.1590,0.1506,0.1252,0.4384,81.1282,
4.1590,0.1506,0.1252,0.4384,81.1282,
4.1700,0.1506,0.1252,0.4384,81.1282,
4.1940,0.1506,0.1252,0.4384,81.1282,
4.1960,0.1506,0.1252,0.4384,81.1282,
4.1960,0.1506,0.1252,0.4384,81.1282,
4.1980,0.2424,-0.2416,-0.0667,81.1282,
4.2200,0.2424,-0.2416,-0.0667,81.1282,
4.2360,0.2424,-0.2416,-0.0667,81.1282,
4.2360,0.2424,-0.2416,-0.0667,81.1282,
4.2370,0.2424,-0.2416,-0.0667,81.1282,
4.2370,0.2650,-0.1541,0.2644,81.1282,
4.2720,0.2650,-0.1541,0.2644,81.1282,
4.2760,0.0869,-0.0278,1.3678,81.1282,
4.2760,0.0869,-0.0278,1.3678,81.1282,
4.2770,0.0869,-0.0278,1.3678,81.1282,
4.2780,0.0869,-0.0278,1.3678,81.1282,
4.3160,0.0869,-0.0278,1.3678,81.1282,
4.3170,0.0869,-0.0278,1.3678,81.1282,
4.3180,0.0869,-0.0278,1.3678,81.1282,
4.3190,-0.0266,-0.3465,2.2989,81.1282,
4.3190,-0.0266,-0.3465,2.2989,81.1282,
4.3510,-0.0266,-0.3465,2.2989,81.0122,
4.3510,-0.0266,-0.3465,2.2989,81.0122,
4.3520,0.0953,-0.4781,0.8420,81.0122,
4.3710,0.0953,-0.4781,0.8420,81.0122,
4.3920,-0.0703,-0.0823,-1.8863,81.0122,
4.3930,-0.0703,-0.0823,-1.8863,81.0122,
4.3930,-0.0703,-0.0823,-1.8863,81.0122,
4.3940,-0.0703,-0.0823,-1.8863,81.0122,
4.3960,-0.0703,-0.0823,-1.8863,81.0122,
4.4230,-0.0703,-0.0823,-1.8863,81.0122,
4.4330,-0.0703,-0.0823,-1.8863,81.0122,
4.4330,-0.0703,-0.0823,-1.8863,81.0122,
4.4340,-0.3890,0.3216,-1.8519,81.0122,
4.4720,-0.3890,0.3216,-1.8519,81.0122,
4.4730,-0.0175,-0.0863,-1.6549,81.0122,
4.4740,-0.0175,-0.0863,-1.6549,81.0122,
4.4740,-0.0175,-0.0863,-1.6549,81.0122,
4.4750,-0.0175,-0.0863,-1.6549,81.0122,
4.4780,-0.0175,-0.0863,-1.6549,81.0122,
4.5130,-0.0175,-0.0863,-1.6549,81.0122,
4.5190,0.1843,0.0199,-1.3995,81.0122,
4.5200,0.1843,0.0199,-1.3995,81.0122,
4.5200,0.1843,0.0199,-1.3995,81.0122,
4.5550,0.1843,0.0199,-1.3995,81.0122,
4.5560,0.1843,0.0199,-1.3995,81.0122,
4.5570,0.1843,0.0199,-1.3995,81.0122,
4.5580,-0.1102,-0.1493,0.5427,81.0122,
4.5720,-0.1102,-0.1493,0.5427,81.0122,
4.5920,-0.1102,-0.1493,0.5427,81.0122,
4.5930,-0.1102,-0.1493,0.5427,81.0122,
4.5940,0.2461,-0.0592,0.8382,81.0122,
4.5950,0.2461,-0.0592,0.8382,81.0122,
4.6280,0.2461,-0.0592,0.8382,78.3707,
4.6310,0.2461,-0.0592,0.8382,78.3707,
4.6320,0.2461,-0.0592,0.8382,78.3707,
4.6330,0.2461,-0.0592,0.8382,78.3707,
4.6330,0.2181,-0.2193,-0.2453,78.3707,
4.6640,0.2181,-0.2193,-0.2453,78.3707,
4.6660,0.2181,-0.2193,-0.2453,78.3707,
4.6700,0.0819,-0.0262,-0.0091,78.3707,
4.6710,0.0819,-0.0262,-0.0091,78.3707,
4.6780,0.0819,-0.0262,-0.0091,78.3707,
4.7040,-0.2180,0.1453,0.8718,78.3707,
4.7050,-0.2180,0.1453,0.8718,78.3707,
4.7090,-0.2180,0.1453,0.8718,78.3707,
4.7090,-0.2180,0.1453,0.8718,78.3707,
4.7160,-0.2180,0.1453,0.8718,78.3707,
4.7370,-0.2180,0.1453,0.8718,78.3707,
4.7380,-0.2180,0.1453,0.8718,78.3707,
4.7380,-0.0682,-0.0964,0.9211,78.3707,
4.7690,-0.0682,-0.0964,0.9211,78.3707,
4.7690,-0.0682,-0.0964,0.9211,78.3707,
4.7760,-0.0682,-0.0964,0.9211,78.3707,
4.7770,-0.0682,-0.0964,0.9211,78.3707,
4.7770,0.5253,-0.1689,0.1215,78.3707,
4.7920,0.5253,-0.1689,0.1215,78.3707,
